# entry-subent-pointer  : 41581-003-0 
# EXFOR reaction        : ['98-CF-252', ['0,F'], 'MASS,PRE,FY'] 
# incident energy       : 0.0000e+00 MeV 
# target                : Cf-252 
# product               : 79.0 <= A <= 173.0 
# level energy          : - 
# MF-MT number          : 8 - 460 
# first author          : E.M.Kozulin 
# institute             : (4ZZZDUB): Joint Institute for Nuclear Research (JINR), Dubna 
# reference             : (J,IET,51,44,2008) 
# year                  : 2008 
# facility              : (SPECC): Crystal spectrometer 
# git                   : https://github.com/IAEA-NDS/exfor_master/blob/main/exforall/415/41581.x4 
# nds                   : https://nds.iaea.org/EXFOR/41581
#
# Charge(No Dim.)    Mass(No Dim.)  Isomer(No Dim.)    Yield(%/fiss)   dYield(%/fiss)
                              79.0                       2.23000E-05      0.00000E+00
                              80.0                       5.80000E-05      0.00000E+00
                              81.0                       1.26000E-04      0.00000E+00
                              82.0                       2.03000E-04      0.00000E+00
                              83.0                       3.02000E-04      0.00000E+00
                              84.0                       4.79000E-04      0.00000E+00
                              85.0                       7.24000E-04      0.00000E+00
                              86.0                       1.06000E-03      0.00000E+00
                              87.0                       1.36000E-03      0.00000E+00
                              88.0                       1.81000E-03      0.00000E+00
                              89.0                       2.61000E-03      0.00000E+00
                              90.0                       3.37000E-03      0.00000E+00
                              91.0                       4.21000E-03      0.00000E+00
                              92.0                       5.33000E-03      0.00000E+00
                              93.0                       6.55000E-03      0.00000E+00
                              94.0                       6.76000E-03      0.00000E+00
                              95.0                       8.31000E-03      0.00000E+00
                              96.0                       1.05400E-02      0.00000E+00
                              97.0                       1.27500E-02      0.00000E+00
                              98.0                       1.44700E-02      0.00000E+00
                              99.0                       1.69500E-02      0.00000E+00
                             100.0                       2.11500E-02      0.00000E+00
                             101.0                       2.55800E-02      0.00000E+00
                             102.0                       3.24500E-02      0.00000E+00
                             103.0                       3.80100E-02      0.00000E+00
                             104.0                       4.45200E-02      0.00000E+00
                             105.0                       4.81600E-02      0.00000E+00
                             106.0                       5.46500E-02      0.00000E+00
                             107.0                       5.91100E-02      0.00000E+00
                             108.0                       5.90600E-02      0.00000E+00
                             109.0                       5.80800E-02      0.00000E+00
                             110.0                       5.62300E-02      0.00000E+00
                             111.0                       5.44200E-02      0.00000E+00
                             112.0                       4.86400E-02      0.00000E+00
                             113.0                       4.56100E-02      0.00000E+00
                             115.0                       4.20700E-02      0.00000E+00
                             116.0                       3.70100E-02      0.00000E+00
                             117.0                       3.36200E-02      0.00000E+00
                             118.0                       2.81900E-02      0.00000E+00
                             119.0                       2.25400E-02      0.00000E+00
                             120.0                       1.71900E-02      0.00000E+00
                             121.0                       1.29000E-02      0.00000E+00
                             122.0                       8.39000E-03      0.00000E+00
                             123.0                       5.20000E-03      0.00000E+00
                             124.0                       3.22000E-03      0.00000E+00
                             125.0                       1.81000E-03      0.00000E+00
                             126.0                       1.47000E-03      0.00000E+00
                             127.0                       1.84000E-03      0.00000E+00
                             128.0                       2.97000E-03      0.00000E+00
                             129.0                       4.78000E-03      0.00000E+00
                             130.0                       8.46000E-03      0.00000E+00
                             131.0                       1.23900E-02      0.00000E+00
                             132.0                       1.75700E-02      0.00000E+00
                             133.0                       2.22900E-02      0.00000E+00
                             134.0                       2.73700E-02      0.00000E+00
                             135.0                       3.25800E-02      0.00000E+00
                             136.0                       3.87600E-02      0.00000E+00
                             137.0                       4.46900E-02      0.00000E+00
                             138.0                       4.75800E-02      0.00000E+00
                             139.0                       5.23100E-02      0.00000E+00
                             140.0                       5.22700E-02      0.00000E+00
                             141.0                       5.93000E-02      0.00000E+00
                             142.0                       5.74100E-02      0.00000E+00
                             143.0                       5.73700E-02      0.00000E+00
                             144.0                       6.01100E-02      0.00000E+00
                             145.0                       5.63400E-02      0.00000E+00
                             146.0                       5.03700E-02      0.00000E+00
                             147.0                       4.43200E-02      0.00000E+00
                             148.0                       3.89900E-02      0.00000E+00
                             149.0                       3.27000E-02      0.00000E+00
                             150.0                       2.74300E-02      0.00000E+00
                             152.0                       2.15800E-02      0.00000E+00
                             153.0                       1.75300E-02      0.00000E+00
                             154.0                       1.51800E-02      0.00000E+00
                             155.0                       1.25300E-02      0.00000E+00
                             156.0                       1.03500E-02      0.00000E+00
                             157.0                       8.82000E-03      0.00000E+00
                             158.0                       6.94000E-03      0.00000E+00
                             159.0                       6.01000E-03      0.00000E+00
                             160.0                       4.88000E-03      0.00000E+00
                             161.0                       3.90000E-03      0.00000E+00
                             162.0                       3.02000E-03      0.00000E+00
                             163.0                       2.27000E-03      0.00000E+00
                             164.0                       1.76000E-03      0.00000E+00
                             165.0                       1.36000E-03      0.00000E+00
                             166.0                       1.03000E-03      0.00000E+00
                             167.0                       7.43000E-04      0.00000E+00
                             168.0                       4.99000E-04      0.00000E+00
                             169.0                       3.00000E-04      0.00000E+00
                             170.0                       2.08000E-04      0.00000E+00
                             171.0                       1.26000E-04      0.00000E+00
                             172.0                       6.10000E-05      0.00000E+00
                             173.0                       2.34000E-05      0.00000E+00
