# entry-subent-pointer  : 23591-003-0 
# EXFOR reaction        : ['92-U-235', ['N,F'], 'MASS,PRE,FY'] 
# incident energy       : 1.5000e+00 MeV 
# target                : U-235 
# product               : 74.0 <= A <= 166.0 
# level energy          : - 
# MF-MT number          : 8 - 460 
# first author          : Ch.Straede 
# institute             : (2ZZZGEL): EC Joint Research Centre (EC-JRC), Geel 
# reference             : (J,NP/A,462,85,1987) 
# year                  : 1987 
# facility              : (VDG): Van de Graaff 
# git                   : https://github.com/IAEA-NDS/exfor_master/blob/main/exforall/235/23591.x4 
# nds                   : https://nds.iaea.org/EXFOR/23591
#
# Charge(No Dim.)    Mass(No Dim.)  Isomer(No Dim.)    Yield(%/fiss)   dYield(%/fiss)
                              74.0                       2.04000E-04      0.00000E+00
                              75.0                       6.43000E-04      0.00000E+00
                              77.0                       5.97000E-04      0.00000E+00
                              79.0                       5.37000E-04      0.00000E+00
                              80.0                       1.21300E-03      0.00000E+00
                              81.0                       2.13900E-03      0.00000E+00
                              82.0                       2.33500E-03      0.00000E+00
                              83.0                       4.44400E-03      0.00000E+00
                              84.0                       6.07300E-03      0.00000E+00
                              85.0                       9.11400E-03      0.00000E+00
                              86.0                       1.19320E-02      0.00000E+00
                              87.0                       1.63980E-02      0.00000E+00
                              88.0                       2.18110E-02      0.00000E+00
                              89.0                       2.84120E-02      0.00000E+00
                              90.0                       3.71420E-02      0.00000E+00
                              91.0                       4.61020E-02      0.00000E+00
                              92.0                       5.38860E-02      0.00000E+00
                              93.0                       6.07180E-02      0.00000E+00
                              95.0                       6.09080E-02      0.00000E+00
                              96.0                       6.86920E-02      0.00000E+00
                              97.0                       6.32260E-02      0.00000E+00
                              98.0                       6.79220E-02      0.00000E+00
                              99.0                       6.12610E-02      0.00000E+00
                             100.0                       5.91060E-02      0.00000E+00
                             101.0                       5.57620E-02      0.00000E+00
                             102.0                       5.33700E-02      0.00000E+00
                             103.0                       4.34040E-02      0.00000E+00
                             104.0                       3.53240E-02      0.00000E+00
                             105.0                       2.70140E-02      0.00000E+00
                             106.0                       1.87030E-02      0.00000E+00
                             107.0                       1.22850E-02      0.00000E+00
                             108.0                       6.33900E-03      0.00000E+00
                             109.0                       1.81300E-03      0.00000E+00
                             110.0                       1.17300E-03      0.00000E+00
                             111.0                       6.48000E-04      0.00000E+00
                             112.0                       3.86000E-04      0.00000E+00
                             113.0                       2.63000E-04      0.00000E+00
                             115.0                       2.83000E-04      0.00000E+00
                             116.0                       2.78000E-04      0.00000E+00
                             118.0                       1.55000E-04      0.00000E+00
                             121.0                       2.41000E-04      0.00000E+00
                             123.0                       4.96000E-04      0.00000E+00
                             124.0                       6.59000E-04      0.00000E+00
                             125.0                       5.15000E-04      0.00000E+00
                             126.0                       1.57700E-03      0.00000E+00
                             127.0                       3.19900E-03      0.00000E+00
                             128.0                       7.42900E-03      0.00000E+00
                             129.0                       1.26120E-02      0.00000E+00
                             130.0                       2.10980E-02      0.00000E+00
                             131.0                       2.60380E-02      0.00000E+00
                             132.0                       3.76060E-02      0.00000E+00
                             133.0                       4.32550E-02      0.00000E+00
                             134.0                       5.26940E-02      0.00000E+00
                             135.0                       5.76410E-02      0.00000E+00
                             136.0                       5.90200E-02      0.00000E+00
                             138.0                       6.74930E-02      0.00000E+00
                             139.0                       6.17840E-02      0.00000E+00
                             140.0                       6.67240E-02      0.00000E+00
                             141.0                       5.93590E-02      0.00000E+00
                             142.0                       6.09810E-02      0.00000E+00
                             143.0                       5.78800E-02      0.00000E+00
                             144.0                       5.29010E-02      0.00000E+00
                             145.0                       4.38680E-02      0.00000E+00
                             146.0                       3.69700E-02      0.00000E+00
                             147.0                       3.15040E-02      0.00000E+00
                             148.0                       2.27140E-02      0.00000E+00
                             149.0                       1.84310E-02      0.00000E+00
                             150.0                       1.24850E-02      0.00000E+00
                             151.0                       9.14100E-03      0.00000E+00
                             152.0                       6.75000E-03      0.00000E+00
                             153.0                       5.30400E-03      0.00000E+00
                             154.0                       2.90600E-03      0.00000E+00
                             155.0                       1.21700E-03      0.00000E+00
                             157.0                       6.98000E-04      0.00000E+00
                             158.0                       6.51000E-04      0.00000E+00
                             160.0                       5.98000E-04      0.00000E+00
                             163.0                       5.31000E-04      0.00000E+00
                             164.0                       4.78000E-04      0.00000E+00
                             166.0                       1.95000E-04      0.00000E+00
