# entry-subent-pointer  : O0941-002-0 
# EXFOR reaction        : ['92-U-238', ['P,F'], 'MASS,PRE,FY'] 
# incident energy       : 2.0000e+01 MeV 
# target                : U-238 
# product               : 71.0 <= A <= 169.0 
# level energy          : - 
# MF-MT number          : 8 - 460 
# first author          : V.A.Rubchenya 
# institute             : (2SF JYV): University of Jyvaskyla, Jyvaskyla 
# reference             : (J,NIM/A,463,653,2001) 
# year                  : 2001 
# facility              : (CYCLO): Cyclotron 
# git                   : https://github.com/IAEA-NDS/exfor_master/blob/main/exforall/O09/O0941.x4 
# nds                   : https://nds.iaea.org/EXFOR/O0941
#
# Charge(No Dim.)    Mass(No Dim.)  Isomer(No Dim.)    Yield(%/fiss)   dYield(%/fiss)
                              71.0                       1.53023E-04      0.00000E+00
                              72.0                       1.36021E-04      0.00000E+00
                              73.0                       2.21034E-04      0.00000E+00
                              74.0                       3.40052E-04      0.00000E+00
                              75.0                       5.95091E-04      0.00000E+00
                              76.0                       1.05000E-03      0.00000E+00
                              77.0                       1.28000E-03      0.00000E+00
                              78.0                       2.02000E-03      0.00000E+00
                              79.0                       2.13000E-03      0.00000E+00
                              80.0                       3.55000E-03      0.00000E+00
                              81.0                       4.11000E-03      0.00000E+00
                              82.0                       5.78000E-03      0.00000E+00
                              83.0                       7.33000E-03      0.00000E+00
                              84.0                       9.84000E-03      0.00000E+00
                              85.0                       1.13100E-02      0.00000E+00
                              86.0                       1.51300E-02      0.00000E+00
                              87.0                       1.77800E-02      0.00000E+00
                              88.0                       2.02200E-02      0.00000E+00
                              89.0                       2.50300E-02      0.00000E+00
                              90.0                       2.62200E-02      0.00000E+00
                              91.0                       3.13900E-02      0.00000E+00
                              92.0                       3.35000E-02      0.00000E+00
                              93.0                       3.65600E-02      0.00000E+00
                              94.0                       3.73500E-02      0.00000E+00
                              95.0                       3.72700E-02      0.00000E+00
                              96.0                       4.01400E-02      0.00000E+00
                              97.0                       4.39200E-02      0.00000E+00
                              98.0                       4.51200E-02      0.00000E+00
                              99.0                       4.43900E-02      0.00000E+00
                             100.0                       4.36800E-02      0.00000E+00
                             101.0                       4.30300E-02      0.00000E+00
                             102.0                       4.09300E-02      0.00000E+00
                             103.0                       3.60800E-02      0.00000E+00
                             104.0                       3.71800E-02      0.00000E+00
                             105.0                       3.26300E-02      0.00000E+00
                             106.0                       3.10800E-02      0.00000E+00
                             107.0                       2.90100E-02      0.00000E+00
                             108.0                       2.65400E-02      0.00000E+00
                             109.0                       2.64100E-02      0.00000E+00
                             110.0                       2.22700E-02      0.00000E+00
                             111.0                       2.24900E-02      0.00000E+00
                             112.0                       1.97100E-02      0.00000E+00
                             113.0                       1.89900E-02      0.00000E+00
                             114.0                       1.67800E-02      0.00000E+00
                             115.0                       1.59800E-02      0.00000E+00
                             116.0                       1.48900E-02      0.00000E+00
                             117.0                       1.53400E-02      0.00000E+00
                             118.0                       1.42800E-02      0.00000E+00
                             119.0                       1.44400E-02      0.00000E+00
                             120.0                       1.51200E-02      0.00000E+00
                             121.0                       1.54400E-02      0.00000E+00
                             122.0                       1.49500E-02      0.00000E+00
                             123.0                       1.52300E-02      0.00000E+00
                             124.0                       1.74300E-02      0.00000E+00
                             125.0                       1.78200E-02      0.00000E+00
                             126.0                       1.93700E-02      0.00000E+00
                             127.0                       2.23100E-02      0.00000E+00
                             128.0                       2.12200E-02      0.00000E+00
                             129.0                       2.37000E-02      0.00000E+00
                             130.0                       2.59500E-02      0.00000E+00
                             131.0                       2.97700E-02      0.00000E+00
                             132.0                       3.13900E-02      0.00000E+00
                             133.0                       3.18300E-02      0.00000E+00
                             134.0                       3.52100E-02      0.00000E+00
                             135.0                       3.73400E-02      0.00000E+00
                             136.0                       3.70500E-02      0.00000E+00
                             137.0                       3.65200E-02      0.00000E+00
                             138.0                       4.16600E-02      0.00000E+00
                             139.0                       4.07000E-02      0.00000E+00
                             140.0                       4.21700E-02      0.00000E+00
                             141.0                       4.18800E-02      0.00000E+00
                             142.0                       4.23200E-02      0.00000E+00
                             143.0                       4.00900E-02      0.00000E+00
                             144.0                       3.61600E-02      0.00000E+00
                             145.0                       3.40900E-02      0.00000E+00
                             146.0                       3.25400E-02      0.00000E+00
                             147.0                       2.87900E-02      0.00000E+00
                             148.0                       2.64600E-02      0.00000E+00
                             149.0                       2.28500E-02      0.00000E+00
                             150.0                       1.99400E-02      0.00000E+00
                             151.0                       1.74300E-02      0.00000E+00
                             152.0                       1.36400E-02      0.00000E+00
                             153.0                       1.05900E-02      0.00000E+00
                             154.0                       9.69000E-03      0.00000E+00
                             155.0                       6.80000E-03      0.00000E+00
                             156.0                       5.71000E-03      0.00000E+00
                             157.0                       4.15000E-03      0.00000E+00
                             158.0                       2.69000E-03      0.00000E+00
                             159.0                       2.13000E-03      0.00000E+00
                             160.0                       1.55000E-03      0.00000E+00
                             161.0                       7.31112E-04      0.00000E+00
                             162.0                       7.14110E-04      0.00000E+00
                             163.0                       4.08063E-04      0.00000E+00
                             164.0                       3.40052E-04      0.00000E+00
                             165.0                       2.21034E-04      0.00000E+00
                             166.0                       1.70026E-04      0.00000E+00
                             167.0                       6.80100E-05      0.00000E+00
                             168.0                       5.10080E-05      0.00000E+00
                             169.0                       3.40050E-05      0.00000E+00
