# entry-subent-pointer  : O0941-002-0 
# EXFOR reaction        : ['92-U-238', ['P,F'], 'MASS,PRE,FY'] 
# incident energy       : 3.5000e+01 MeV 
# target                : U-238 
# product               : 71.0 <= A <= 169.0 
# level energy          : - 
# MF-MT number          : 8 - 460 
# first author          : V.A.Rubchenya 
# institute             : (2SF JYV): University of Jyvaskyla, Jyvaskyla 
# reference             : (J,NIM/A,463,653,2001) 
# year                  : 2001 
# facility              : (CYCLO): Cyclotron 
# git                   : https://github.com/IAEA-NDS/exfor_master/blob/main/exforall/O09/O0941.x4 
# nds                   : https://nds.iaea.org/EXFOR/O0941
#
# Charge(No Dim.)    Mass(No Dim.)  Isomer(No Dim.)    Yield(%/fiss)   dYield(%/fiss)
                              71.0                       1.59000E-04      0.00000E+00
                              72.0                       2.45000E-04      0.00000E+00
                              73.0                       2.45000E-04      0.00000E+00
                              74.0                       4.16000E-04      0.00000E+00
                              75.0                       7.58000E-04      0.00000E+00
                              76.0                       9.05000E-04      0.00000E+00
                              77.0                       1.31000E-03      0.00000E+00
                              78.0                       2.09000E-03      0.00000E+00
                              79.0                       2.31000E-03      0.00000E+00
                              80.0                       3.31000E-03      0.00000E+00
                              81.0                       4.12000E-03      0.00000E+00
                              82.0                       5.82000E-03      0.00000E+00
                              83.0                       7.00000E-03      0.00000E+00
                              84.0                       8.82000E-03      0.00000E+00
                              85.0                       1.03700E-02      0.00000E+00
                              86.0                       1.27000E-02      0.00000E+00
                              87.0                       1.50800E-02      0.00000E+00
                              88.0                       1.78100E-02      0.00000E+00
                              89.0                       1.97600E-02      0.00000E+00
                              90.0                       2.48400E-02      0.00000E+00
                              91.0                       2.53800E-02      0.00000E+00
                              92.0                       2.85200E-02      0.00000E+00
                              93.0                       3.15600E-02      0.00000E+00
                              94.0                       3.18500E-02      0.00000E+00
                              95.0                       3.31200E-02      0.00000E+00
                              96.0                       3.51000E-02      0.00000E+00
                              97.0                       3.56800E-02      0.00000E+00
                              98.0                       3.86900E-02      0.00000E+00
                              99.0                       3.64500E-02      0.00000E+00
                             100.0                       3.97000E-02      0.00000E+00
                             101.0                       3.85900E-02      0.00000E+00
                             102.0                       3.79200E-02      0.00000E+00
                             103.0                       3.60900E-02      0.00000E+00
                             104.0                       3.55500E-02      0.00000E+00
                             105.0                       3.58200E-02      0.00000E+00
                             106.0                       3.31700E-02      0.00000E+00
                             107.0                       3.08500E-02      0.00000E+00
                             108.0                       3.13500E-02      0.00000E+00
                             109.0                       2.89600E-02      0.00000E+00
                             110.0                       2.91200E-02      0.00000E+00
                             111.0                       2.76800E-02      0.00000E+00
                             112.0                       2.46000E-02      0.00000E+00
                             113.0                       2.70800E-02      0.00000E+00
                             114.0                       2.59200E-02      0.00000E+00
                             115.0                       2.32100E-02      0.00000E+00
                             116.0                       2.26300E-02      0.00000E+00
                             117.0                       2.39700E-02      0.00000E+00
                             118.0                       2.40000E-02      0.00000E+00
                             119.0                       2.44700E-02      0.00000E+00
                             120.0                       2.27300E-02      0.00000E+00
                             121.0                       2.36400E-02      0.00000E+00
                             122.0                       2.32600E-02      0.00000E+00
                             123.0                       2.51600E-02      0.00000E+00
                             124.0                       2.37300E-02      0.00000E+00
                             125.0                       2.43500E-02      0.00000E+00
                             126.0                       2.41900E-02      0.00000E+00
                             127.0                       2.64900E-02      0.00000E+00
                             128.0                       2.75800E-02      0.00000E+00
                             129.0                       2.78600E-02      0.00000E+00
                             130.0                       2.84000E-02      0.00000E+00
                             131.0                       3.17200E-02      0.00000E+00
                             132.0                       3.11900E-02      0.00000E+00
                             133.0                       3.28400E-02      0.00000E+00
                             134.0                       3.43700E-02      0.00000E+00
                             135.0                       3.56700E-02      0.00000E+00
                             136.0                       3.41400E-02      0.00000E+00
                             137.0                       3.60400E-02      0.00000E+00
                             138.0                       3.62600E-02      0.00000E+00
                             139.0                       3.49600E-02      0.00000E+00
                             140.0                       3.50500E-02      0.00000E+00
                             141.0                       3.65000E-02      0.00000E+00
                             142.0                       3.55800E-02      0.00000E+00
                             143.0                       3.31300E-02      0.00000E+00
                             144.0                       3.07100E-02      0.00000E+00
                             145.0                       2.94000E-02      0.00000E+00
                             146.0                       2.75900E-02      0.00000E+00
                             147.0                       2.48200E-02      0.00000E+00
                             148.0                       2.22500E-02      0.00000E+00
                             149.0                       2.07100E-02      0.00000E+00
                             150.0                       1.57500E-02      0.00000E+00
                             151.0                       1.46000E-02      0.00000E+00
                             152.0                       1.18400E-02      0.00000E+00
                             153.0                       1.02600E-02      0.00000E+00
                             154.0                       7.09000E-03      0.00000E+00
                             155.0                       6.60000E-03      0.00000E+00
                             156.0                       5.16000E-03      0.00000E+00
                             157.0                       3.56000E-03      0.00000E+00
                             158.0                       2.70000E-03      0.00000E+00
                             159.0                       2.32000E-03      0.00000E+00
                             160.0                       1.14000E-03      0.00000E+00
                             161.0                       9.78000E-04      0.00000E+00
                             162.0                       8.81000E-04      0.00000E+00
                             163.0                       5.26000E-04      0.00000E+00
                             164.0                       3.18000E-04      0.00000E+00
                             165.0                       3.30000E-04      0.00000E+00
                             166.0                       1.47000E-04      0.00000E+00
                             167.0                       1.59000E-04      0.00000E+00
                             168.0                       1.71000E-04      0.00000E+00
                             169.0                       3.66930E-05      0.00000E+00
