# entry-subent-pointer  : O0941-002-0 
# EXFOR reaction        : ['92-U-238', ['P,F'], 'MASS,PRE,FY'] 
# incident energy       : 6.0000e+01 MeV 
# target                : U-238 
# product               : 71.0 <= A <= 169.0 
# level energy          : - 
# MF-MT number          : 8 - 460 
# first author          : V.A.Rubchenya 
# institute             : (2SF JYV): University of Jyvaskyla, Jyvaskyla 
# reference             : (J,NIM/A,463,653,2001) 
# year                  : 2001 
# facility              : (CYCLO): Cyclotron 
# git                   : https://github.com/IAEA-NDS/exfor_master/blob/main/exforall/O09/O0941.x4 
# nds                   : https://nds.iaea.org/EXFOR/O0941
#
# Charge(No Dim.)    Mass(No Dim.)  Isomer(No Dim.)    Yield(%/fiss)   dYield(%/fiss)
                              71.0                       1.21000E-04      0.00000E+00
                              72.0                       3.62990E-04      0.00000E+00
                              73.0                       5.56580E-04      0.00000E+00
                              74.0                       6.53380E-04      0.00000E+00
                              75.0                       8.95370E-04      0.00000E+00
                              76.0                       1.43000E-03      0.00000E+00
                              77.0                       1.62000E-03      0.00000E+00
                              78.0                       2.32000E-03      0.00000E+00
                              79.0                       2.69000E-03      0.00000E+00
                              80.0                       3.65000E-03      0.00000E+00
                              81.0                       5.25000E-03      0.00000E+00
                              82.0                       5.98000E-03      0.00000E+00
                              83.0                       7.02000E-03      0.00000E+00
                              84.0                       8.83000E-03      0.00000E+00
                              85.0                       1.14000E-02      0.00000E+00
                              86.0                       1.39400E-02      0.00000E+00
                              87.0                       1.63300E-02      0.00000E+00
                              88.0                       1.52000E-02      0.00000E+00
                              89.0                       1.95800E-02      0.00000E+00
                              90.0                       1.87500E-02      0.00000E+00
                              91.0                       2.57200E-02      0.00000E+00
                              92.0                       2.78300E-02      0.00000E+00
                              93.0                       2.71300E-02      0.00000E+00
                              94.0                       2.88000E-02      0.00000E+00
                              95.0                       3.00600E-02      0.00000E+00
                              96.0                       3.29600E-02      0.00000E+00
                              97.0                       3.48200E-02      0.00000E+00
                              98.0                       3.56900E-02      0.00000E+00
                              99.0                       3.65900E-02      0.00000E+00
                             100.0                       3.89800E-02      0.00000E+00
                             101.0                       3.60600E-02      0.00000E+00
                             102.0                       3.44600E-02      0.00000E+00
                             103.0                       3.74600E-02      0.00000E+00
                             104.0                       3.35900E-02      0.00000E+00
                             105.0                       3.36900E-02      0.00000E+00
                             106.0                       3.43900E-02      0.00000E+00
                             107.0                       3.31300E-02      0.00000E+00
                             108.0                       3.33500E-02      0.00000E+00
                             109.0                       3.31000E-02      0.00000E+00
                             110.0                       2.98600E-02      0.00000E+00
                             111.0                       2.95000E-02      0.00000E+00
                             112.0                       3.10700E-02      0.00000E+00
                             113.0                       2.97900E-02      0.00000E+00
                             114.0                       2.98100E-02      0.00000E+00
                             115.0                       2.71000E-02      0.00000E+00
                             116.0                       2.86000E-02      0.00000E+00
                             117.0                       2.88500E-02      0.00000E+00
                             118.0                       2.68900E-02      0.00000E+00
                             119.0                       2.92300E-02      0.00000E+00
                             120.0                       2.69100E-02      0.00000E+00
                             121.0                       2.69600E-02      0.00000E+00
                             122.0                       2.69600E-02      0.00000E+00
                             123.0                       2.94700E-02      0.00000E+00
                             124.0                       2.82600E-02      0.00000E+00
                             125.0                       2.78000E-02      0.00000E+00
                             126.0                       2.88700E-02      0.00000E+00
                             127.0                       2.93500E-02      0.00000E+00
                             128.0                       2.98100E-02      0.00000E+00
                             129.0                       3.10700E-02      0.00000E+00
                             130.0                       3.24800E-02      0.00000E+00
                             131.0                       3.09000E-02      0.00000E+00
                             132.0                       3.37300E-02      0.00000E+00
                             133.0                       3.11900E-02      0.00000E+00
                             134.0                       3.27900E-02      0.00000E+00
                             135.0                       3.17500E-02      0.00000E+00
                             136.0                       3.24800E-02      0.00000E+00
                             137.0                       3.41900E-02      0.00000E+00
                             138.0                       3.25200E-02      0.00000E+00
                             139.0                       3.25000E-02      0.00000E+00
                             140.0                       3.15600E-02      0.00000E+00
                             141.0                       3.20600E-02      0.00000E+00
                             142.0                       3.11900E-02      0.00000E+00
                             143.0                       2.92100E-02      0.00000E+00
                             144.0                       2.85800E-02      0.00000E+00
                             145.0                       2.70100E-02      0.00000E+00
                             146.0                       2.37200E-02      0.00000E+00
                             147.0                       2.05700E-02      0.00000E+00
                             148.0                       1.77400E-02      0.00000E+00
                             149.0                       1.82900E-02      0.00000E+00
                             150.0                       1.41300E-02      0.00000E+00
                             151.0                       1.37900E-02      0.00000E+00
                             152.0                       1.07700E-02      0.00000E+00
                             153.0                       8.93000E-03      0.00000E+00
                             154.0                       7.11000E-03      0.00000E+00
                             155.0                       5.40000E-03      0.00000E+00
                             156.0                       3.44000E-03      0.00000E+00
                             157.0                       3.17000E-03      0.00000E+00
                             158.0                       2.23000E-03      0.00000E+00
                             159.0                       1.98000E-03      0.00000E+00
                             160.0                       1.04000E-03      0.00000E+00
                             161.0                       7.74370E-04      0.00000E+00
                             162.0                       6.29180E-04      0.00000E+00
                             163.0                       5.32380E-04      0.00000E+00
                             164.0                       4.59780E-04      0.00000E+00
                             165.0                       2.66190E-04      0.00000E+00
                             166.0                       9.68000E-05      0.00000E+00
                             167.0                       4.84000E-05      0.00000E+00
                             168.0                       7.26000E-05      0.00000E+00
                             169.0                       7.26000E-05      0.00000E+00
