# entry-subent-pointer  : 14420-002-0 
# EXFOR reaction        : ['98-CF-252', ['0,F'], 'MASS,SEC,FY'] 
# incident energy       : 0.0000e+00 MeV 
# target                : Cf-252 
# product               : 80.0 <= A <= 172.0 
# level energy          : - 
# MF-MT number          : 8 - 454 
# first author          : K.Meierbachtol 
# institute             : (1USALAS): Los Alamos National Laboratory, NM 
# reference             : (J,NIM/A,788,59,2015) 
# year                  : 2015 
# facility              : None 
# git                   : https://github.com/IAEA-NDS/exfor_master/blob/main/exforall/144/14420.x4 
# nds                   : https://nds.iaea.org/EXFOR/14420
#
# Charge(No Dim.)    Mass(No Dim.)  Isomer(No Dim.)    Yield(%/fiss)   dYield(%/fiss)
                              80.0                       1.27000E-04      0.00000E+00
                              81.0                       1.64000E-04      0.00000E+00
                              82.0                       1.27000E-04      0.00000E+00
                              83.0                       3.88000E-04      0.00000E+00
                              84.0                       4.26000E-04      0.00000E+00
                              85.0                       3.88000E-04      0.00000E+00
                              86.0                       1.06000E-03      0.00000E+00
                              87.0                       1.25000E-03      0.00000E+00
                              88.0                       1.84000E-03      0.00000E+00
                              89.0                       2.93000E-03      0.00000E+00
                              90.0                       3.79000E-03      0.00000E+00
                              91.0                       4.87000E-03      3.73000E-05
                              92.0                       5.80000E-03      0.00000E+00
                              93.0                       7.33000E-03      0.00000E+00
                              94.0                       9.39000E-03      0.00000E+00
                              95.0                       1.10000E-02      0.00000E+00
                              96.0                       1.32000E-02      0.00000E+00
                              97.0                       1.57000E-02      0.00000E+00
                              98.0                       1.87000E-02      0.00000E+00
                              99.0                       2.40000E-02      0.00000E+00
                             100.0                       2.90000E-02      0.00000E+00
                             101.0                       3.50000E-02      6.72000E-04
                             102.0                       4.05000E-02      5.98000E-04
                             103.0                       4.85000E-02      7.84000E-04
                             104.0                       5.54000E-02      6.35000E-04
                             105.0                       6.11000E-02      6.72000E-04
                             106.0                       6.43000E-02      5.98000E-04
                             107.0                       6.26000E-02      7.84000E-04
                             108.0                       6.25000E-02      7.47000E-04
                             109.0                       5.84000E-02      8.96000E-04
                             110.0                       5.59000E-02      6.35000E-04
                             111.0                       5.36000E-02      6.72000E-04
                             112.0                       4.65000E-02      7.10000E-04
                             113.0                       4.37000E-02      7.47000E-04
                             114.0                       3.86000E-02      5.23000E-04
                             115.0                       3.42000E-02      0.00000E+00
                             116.0                       2.78000E-02      0.00000E+00
                             117.0                       2.12000E-02      0.00000E+00
                             118.0                       1.60000E-02      0.00000E+00
                             119.0                       1.08000E-02      0.00000E+00
                             120.0                       6.25000E-03      0.00000E+00
                             121.0                       3.79000E-03      0.00000E+00
                             122.0                       1.77000E-03      0.00000E+00
                             123.0                       1.21000E-03      0.00000E+00
                             124.0                       1.06000E-03      0.00000E+00
                             125.0                       1.21000E-03      0.00000E+00
                             126.0                       1.62000E-03      0.00000E+00
                             127.0                       2.03000E-03      0.00000E+00
                             128.0                       3.49000E-03      0.00000E+00
                             129.0                       6.77000E-03      0.00000E+00
                             130.0                       1.19000E-02      0.00000E+00
                             131.0                       1.87000E-02      0.00000E+00
                             132.0                       2.72000E-02      0.00000E+00
                             132.9                       3.62000E-02      6.72000E-04
                             134.0                       4.03000E-02      0.00000E+00
                             135.0                       4.31000E-02      0.00000E+00
                             136.0                       4.75000E-02      7.47000E-04
                             137.0                       5.19000E-02      6.72000E-04
                             138.0                       5.47000E-02      6.35000E-04
                             139.0                       5.71000E-02      8.59000E-04
                             140.0                       5.92000E-02      6.35000E-04
                             141.0                       6.08000E-02      0.00000E+00
                             142.0                       6.27000E-02      6.72000E-04
                             142.9                       6.18000E-02      7.47000E-04
                             144.0                       5.70000E-02      7.84000E-04
                             145.0                       4.86000E-02      7.47000E-04
                             146.0                       4.36000E-02      6.72000E-04
                             147.0                       3.57000E-02      6.35000E-04
                             148.0                       3.09000E-02      0.00000E+00
                             149.0                       2.53000E-02      0.00000E+00
                             150.0                       2.09000E-02      0.00000E+00
                             151.0                       1.72000E-02      0.00000E+00
                             152.0                       1.54000E-02      0.00000E+00
                             153.0                       1.16000E-02      0.00000E+00
                             154.0                       8.94000E-03      0.00000E+00
                             155.0                       7.60000E-03      0.00000E+00
                             156.0                       5.77000E-03      0.00000E+00
                             157.0                       5.62000E-03      0.00000E+00
                             158.0                       4.65000E-03      0.00000E+00
                             159.0                       3.67000E-03      0.00000E+00
                             160.0                       3.11000E-03      0.00000E+00
                             161.0                       2.18000E-03      0.00000E+00
                             162.0                       1.73000E-03      0.00000E+00
                             163.0                       1.32000E-03      0.00000E+00
                             164.0                       1.17000E-03      0.00000E+00
                             165.0                       1.10000E-03      0.00000E+00
                             166.0                       5.00000E-04      0.00000E+00
                             167.0                       3.88000E-04      0.00000E+00
                             168.0                       3.88000E-04      0.00000E+00
                             169.0                       1.64000E-04      0.00000E+00
                             170.0                       2.02000E-04      0.00000E+00
                             171.0                       1.64000E-04      0.00000E+00
                             172.0                       1.27000E-04      0.00000E+00
