# entry-subent-pointer  : 21054-087-0 
# EXFOR reaction        : ['92-U-235', ['N,F'], 'MASS,CHN,FY,,MXW'] 
# incident energy       : 2.5300e-08 MeV 
# target                : U-235 
# product               : 79.0 <= A <= 110.0 
# level energy          : - 
# MF-MT number          : 8 - 459 
# first author          : H.Wohlfarth 
# institute             : (2GERTHD): Technische Universitaet Darmstadt 
# reference             : (T,WOHLFARTH,7612) 
# year                  : 1976 
# facility              : (SPECD): Double mass spectrometer 
# git                   : https://github.com/IAEA-NDS/exfor_master/blob/main/exforall/210/21054.x4 
# nds                   : https://nds.iaea.org/EXFOR/21054
#
# Charge(No Dim.)    Mass(No Dim.)  Isomer(No Dim.)    Yield(%/fiss)   dYield(%/fiss)
                              79.0                       6.40000E-04      2.00000E-04
                              80.0                       1.15000E-03      1.60000E-04
                              81.0                       2.02000E-03      2.10000E-04
                              82.0                       3.35000E-03      1.90000E-04
                              83.0                       6.27000E-03      2.80000E-04
                              84.0                       9.74000E-03      3.30000E-04
                              85.0                       1.43000E-02      4.00000E-04
                              86.0                       1.93000E-02      5.00000E-04
                              87.0                       2.45000E-02      6.00000E-04
                              88.0                       3.45000E-02      7.00000E-04
                              89.0                       4.78000E-02      9.00000E-04
                              90.0                       5.90000E-02      1.10000E-03
                              91.0                       5.92000E-02      1.10000E-03
                              92.0                       5.91000E-02      1.10000E-03
                              93.0                       6.21000E-02      1.20000E-03
                              94.0                       6.66000E-02      1.20000E-03
                              95.0                       6.57000E-02      1.20000E-03
                              96.0                       6.32000E-02      1.20000E-03
                              97.0                       5.79000E-02      1.10000E-03
                              98.0                       5.72000E-02      1.40000E-03
                              99.0                       6.35000E-02      1.20000E-03
                             100.0                       6.12000E-02      1.20000E-03
                             101.0                       4.99000E-02      1.00000E-03
                             102.0                       4.56000E-02      9.00000E-04
                             103.0                       3.08000E-02      7.00000E-04
                             104.0                       1.90000E-02      5.00000E-04
                             105.0                       9.72000E-03      3.60000E-04
                             106.0                       4.39000E-03      2.20000E-04
                             107.0                       1.10000E-03      1.60000E-04
                             108.0                       5.70000E-04      7.00000E-05
                             109.0                       1.60000E-04      0.00000E+00
                             110.0                       2.40000E-04      5.00000E-05
